Folder: pyRheo/demos/data/pi_linear

Note: demos/data/pi_linear/data_framework_DMA.txt
# Maxwell modes
# Generated with RepTate v1.3.3 2023-12-19 (build v1.3.3)
# At 02:39:17 PM on Fri Feb 28, 2025

#number of modes
8

#   i	          tau_i	            G_i
    1	         224954	    2.48324e-08
    2	        11880.4	        272.782
    3	        627.439	         165713
    4	        33.1368	         135672
    5	        1.75005	        92037.4
    6	      0.0924248	         275950
    7	     0.00488121	    1.14812e+06
    8	     0.00025779	    2.07802e+07

#end

Note: README.md
# pyRheo

**pyRheo** is a Python package for rheological modeling, providing tools for creep, stress relaxation, oscillation, and rotation models. This package is designed to help researchers and engineers analyze and model the behavior of viscoelastic materials.

## Table of Contents

- [Installation](#installation)
- [Usage](#usage)
  - [Creep Model](#creep-model)
  - [Stress Relaxation Model](#stress-relaxation-model)
  - [Oscillation Model](#oscillation-model)
  - [Rotation Model](#rotation-model)
- [Demo Scripts](#demo-scripts)
- [GUI](#gui)
- [Contributing](#contributing)
- [License](#license)

## Installation

You can install the `pyRheo` package directly from GitHub using pip:

```sh
pip install git+https://github.com/mirandi1/pyRheo.git
```

## Usage
### Importing the package
Once the package has been installed, you can simply import its modules:

```python
from pyRheo import CreepModel, RelaxationModel, OscillationModel, RotationModel
```

### Modeling data with pyRheo
To begin modeling data, first define a model object:

```python
model = RelaxationModel(model="FractionalZenerSolidS", initial_guesses="random", 
                        num_initial_guesses=10, 
                        minimization_algorithm="Powell", 
                        mittag_leffler_type="Pade32"
                       )
```

fit the data with the model object:

```python
model.fit(time, G_relax)
```

Here, `time` and `G_relax` are Python NumPy arrays of the same size.

### Output the model results

```python
model.get_parameters()
model.print_parameters()
model.print_error()
```

### Predicting data and plotting
Plot the original data and the fitting results with 
```python
model.plot(time, G_relax)
```

or use the fitted model to predict data over a customized time range

```python
time_predict = np.logspace(np.min(np.log10(time)), np.max(np.log10(time)), 100)
G_relax_predict = model.predict(time_predict)
```

File: PI_2.4k_T-35.csv
Angular Frequency,Storage Modulus,Loss Modulus
1.90166,73.8024,13515.2
3.01393,199.063,21483.5
4.517,372.861,31775.7
4.77674,509.973,34118
5.23979,586.441,40905.4
7.15897,995.255,50144.9
7.57058,1220.28,54165.9
8.17819,1050.83,56590.3
8.30448,1522.82,64989.7
11.3462,2524.46,79830.7
11.9986,3015.73,85687.5
12.9615,3128.6,89151.1
17.9825,6070.85,125850
18.6835,5107.08,128596
19.0166,7174.06,135407
20.5427,7505.45,141103
28.5002,14839.8,198545
29.6113,12709.8,203914
30.1393,17467.8,213420
32.558,18244.4,221660
45.17,35362.2,309656
46.9307,30103.8,317809
47.7674,41434.6,331487
51.601,43054,344687
71.5897,80163.6,474338
74.3798,68820.5,489615
75.7058,93506.1,504617
81.7819,94442.6,523442
113.462,165470,702452
117.885,144052,735090
129.615,189737,772658
179.825,308059,1.0068e+06
186.835,272410,1.07336e+06
205.427,338218,1.10238e+06
285.002,508274,1.40235e+06
296.113,459144,1.52707e+06
325.58,538885,1.53756e+06
469.307,703521,2.14984e+06
516.01,794074,2.14778e+06
743.798,1.00726e+06,3.04993e+06
817.819,1.11432e+06,3.02364e+06
1178.85,1.39676e+06,4.36833e+06
1296.15,1.53418e+06,4.31734e+06
1868.35,1.88523e+06,6.31974e+06

File: PI_13.5k_T-35.csv
Angular Frequency,Storage Modulus,Loss Modulus
0.0453382,116.241,5987.99
0.0453382,117.694,6012
0.0482162,141.402,6522.5
0.0562614,180.82,7709.52
0.0665475,265.915,8835.15
0.0665475,238.203,8782.26
0.0707706,305.251,9563.61
0.08258,351.793,11204.3
0.0976785,513.086,12875.9
0.0976785,525.585,12955.9
0.103879,634.411,14020.6
0.12121,812.382,16410.5
0.13301,1059.31,18512.4
0.14337,1109.61,18997.9
0.14337,1094.62,18864.5
0.152473,1362.54,20496
0.177913,1773.41,23943.7
0.195217,2283.97,27287.1
0.210443,2374.02,27572.9
0.210443,2338.43,27705.4
0.223799,2823.2,29925.7
0.286536,4830.83,40000
0.308887,4980.38,40036.8
0.308887,4968.79,40235.4
0.328493,5912.66,43273.7
0.346353,6714.75,46490.4
0.420578,10194,57671.4
0.453382,10370.4,57489.4
0.453382,10643.6,57950.2
0.482162,12231.9,61804.4
0.508368,13801.5,66179.6
0.617314,21185.2,82199.2
0.665475,20966.2,80765.2
0.665475,21177.8,81164.4
0.707706,24309.9,85990.8
0.746199,27221.8,91742.8
0.906114,40341.1,111500
1.03879,45368.3,114777
1.09526,49995.3,121399
1.32999,69799.9,142351
1.52473,77291.6,144689
1.60762,83792.6,151634
1.95214,108374,170809
2.23799,117940,171666
2.35967,126155,178714
2.86536,153632,196905
3.28493,163288,195347
3.46353,172484,202571
4.20578,201039,222267
5.08368,220042,226920
6.17314,250634,251459
7.46199,268661,256850
9.06114,301970,287787
10.9526,320699,296193
13.2999,359059,336598
16.0762,378249,347651
19.5214,422237,401069
23.5967,444702,415323
28.6536,495383,485292
42.0578,580522,597831
61.7314,682218,747004
90.6114,802657,940284
132.999,946332,1.19941e+06
195.214,1.12518e+06,1.54681e+06
286.536,1.34827e+06,2.01721e+06

File: PI_33.6k_T-35.csv
Angular Frequency,Storage Modulus,Loss Modulus
0.00192469,149.745,4574.68
0.0023127,174.462,5264.59
0.00251161,183.17,5579.82
0.00282507,202.333,6676.32
0.00339456,342.79,7721.58
0.0036865,429.612,8234.03
0.00400107,383.614,8891.09
0.00414656,540.399,9769.24
0.00498251,745.098,11302.2
0.00541104,834.147,12080.9
0.00587078,874.94,12906.4
0.00608646,1161.82,14219
0.00731334,1561.31,16503.5
0.00794219,1769.57,17629.2
0.00861812,2167.7,18793.1
0.00893366,2476.96,20726.5
0.0107345,3310.81,23909.5
0.0116578,3818.04,25555.2
0.0126519,4456.45,27250.3
0.0131127,5184.4,29889.3
0.0157559,6893.32,34222
0.0171112,7908.5,36521.8
0.018569,8987.78,38598.2
0.0192469,10574.6,42163.9
0.023127,13890.4,47803.3
0.0251157,15709.5,50516.7
0.0272553,17969.7,53251.6
0.0282507,20668.6,57396.2
0.0339456,26294.4,63803.7
0.0344856,25855.5,63446.5
0.036865,29450.8,66782.9
0.0400053,32724.3,69674.7
0.0414656,37181.6,74044.8
0.0498251,45635.4,79919
0.0506249,44937.1,79152.9
0.0541104,50024.7,82523.7
0.0587187,54832.6,84775.2
0.0608646,60468.9,88771.4
0.0731334,71154.5,92823.4
0.074282,70607.3,92364.7
0.0794219,76260,94445.9
0.0861893,81325.3,95508.1
0.0893366,88194.3,98673.5
0.107345,99491.7,100761
0.109044,98818.9,100144
0.116578,104480,101231
0.126508,109962,101806
0.131127,117011,104498
0.157559,127692,105102
0.160082,127292,104709
0.171112,132521,104755
0.185687,137514,104705
0.192469,144625,107504
0.23127,154908,108082
0.234951,154946,107702
0.251157,159755,107529
0.272553,164417,107338
0.339456,181462,110750
0.344856,182192,110054
0.36865,185886,110350
0.400053,190692,110699
0.498251,207611,114318
0.50618,208349,113700
0.541104,212066,113371
0.587187,215836,113509
0.731334,233834,118770
0.742958,233946,118587
0.794219,237172,118206
0.861893,241954,118098
1.09054,260388,125846
1.16578,263151,125121
1.26508,266971,125870
1.60068,287074,135824
1.71112,289483,135741
1.85687,294876,136472
2.34947,314249,150995
2.51157,317191,150835
2.72553,321966,153186
3.44856,344896,172061
3.6865,347607,171258
4.00053,352289,174371
5.0618,379392,200835
5.87187,386405,203328
7.42958,414865,236614
8.61893,424854,243369
10.9054,462119,287359
12.6508,469798,293442
16.0068,512274,351005
18.5687,524803,360150
23.4947,575146,434791
27.2553,591580,445547
34.4856,652232,546189
50.618,743003,688489
74.2958,855277,871201
109.054,992384,1.11796e+06
160.068,1.16001e+06,1.44204e+06
234.947,1.36598e+06,1.8822e+06
344.856,1.62796e+06,2.4706e+06

File: PI_94.9k_T-35.csv
Angular Frequency,Storage Modulus,Loss Modulus
2.04343e-05,43.4739,2226.35
2.92433e-05,91.0922,3207.54
2.99987e-05,85.7828,3279.99
3.48413e-05,105.41,3825.45
4.29087e-05,177.011,4690.98
4.40287e-05,177.892,4791.97
5.11412e-05,236.409,5610.06
6.29886e-05,363.539,6862.19
6.46246e-05,352.943,7030.36
7.50647e-05,471.73,8198.22
9.24709e-05,703.246,10035.9
9.4856e-05,745.172,10279.1
0.000110179,985.813,11989.1
0.000135718,1452.85,14622.2
0.000139227,1534.41,14978.6
0.000161722,2070.99,17432.4
0.000199205,3033.88,21344.6
0.000204362,3244.3,21749.1
0.000237375,4347.18,25132.2
0.000292393,6259.52,30354
0.000299961,6671.35,31025.2
0.000348413,8789.74,35690.7
0.000387756,10341.6,38435.9
0.000429167,12839.2,42314.6
0.000440281,13191,43049.5
0.000511412,17228.9,48921.8
0.000569226,20069.5,52209.5
0.000629946,24100.7,56482
0.000646246,25046.4,57336.1
0.000750647,31478.6,63460.6
0.000762176,32300.6,64373.9
0.000835227,35988,66835.1
0.000924629,41905.3,70225.6
0.00094856,43264.3,71096.9
0.00110179,51983.2,76867.8
0.00111872,53558.3,76508.5
0.00122609,58330.6,78394.5
0.00135716,65634,80384.6
0.00139227,67129.3,80992.3
0.00161722,77616.4,84258.5
0.00164203,79366.2,84307.2
0.00179996,84128.1,85481.7
0.00199205,91350.8,85347.3
0.00204362,93098.9,85507.4
0.00237375,103608,86800.7
0.00241023,105075,86456.7
0.00264178,110075,86206.4
0.00292393,116458,85127
0.00299961,117861,85535.1
0.00348413,127725,85612.7
0.00353772,129237,85193.9
0.00387756,133632,85093.2
0.00429167,138935,83100.5
0.00440281,140389,83471.2
0.00511412,149517,83552.4
0.00519263,151100,82851.2
0.00569149,155385,82007.9
0.00629946,159708,80610.3
0.00646246,161427,81422.8
0.00750647,170112,81465.4
0.00762176,171777,80392.7
0.00835382,176340,80363.6
0.00924629,179839,79031.6
0.0094856,181200,79165.7
0.0110179,190151,79402.6
0.0111872,191680,78138.3
0.012262,195195,77640.2
0.0134776,199447,77920.6
0.0135716,199470,76378.1
0.0139227,200679,76669.5
0.0161722,209774,77209.3
0.0164203,210545,75099.4
0.0179981,214155,74838
0.019781,218106,74119
0.0199205,217843,73592.6
0.0204362,219093,73955.1
0.0241023,228996,72729.1
0.0264174,232716,71421.2
0.0290341,235587,71763.7
0.0292393,235646,70684.1
0.0299961,236684,71331.7
0.0353772,246140,69593.6
0.0387756,249729,68824.2
0.0426163,252635,68918.1
0.0429167,252111,68108.2
0.0440281,253209,68934.3
0.0519263,262668,66976.9
0.0569149,265222,65958.3
0.0625511,269250,66155.1
0.0629946,267426,65920.3
0.0646246,268895,66546.4
0.0762176,278075,64637.9
0.0835382,280525,63012.7
0.0918146,284353,64886.5
0.0924629,282517,63947.4
0.111872,292396,63192
0.12262,295230,61524.2
0.134765,298217,63005.9
0.135716,296832,63079.5
0.164203,306477,62480.1
0.179981,308243,61068.2
0.197807,311718,61990.8
0.199205,310398,63211.5
0.241023,319832,63106.5
0.254871,321438,63491.3
0.264174,322492,62559.6
0.290341,325523,63408.7
0.353772,333003,65149.3
0.374095,334654,65409.6
0.387756,335724,64874.5
0.426163,338228,64910.1
0.519263,346119,68796.2
0.549097,348216,68854
0.56017,348872,69464.2
0.569149,348813,69283
0.625511,351768,69508.7
0.762176,360220,75673.3
0.805951,361462,74203.5
0.822362,362925,75076.3
0.835382,362559,75930.4
0.918146,365250,76817.2
1.183,375421,84138.9
1.20697,376118,85540.3
1.2262,376646,85011.5
1.34765,380303,87191.4
1.7364,390134,96963.8
1.77157,392256,98277.8
1.79981,393383,100015
1.97807,396594,102573
2.54867,408950,115064
2.60031,409587,116816
2.64174,410538,119070
2.90341,415922,121665
3.74095,429731,137891
3.81666,430424,141418
3.87756,433507,144300
4.26163,438787,148322
5.49097,454564,169068
5.60223,456810,173860
6.25511,466349,182644
8.05951,485130,211913
8.22291,487458,218075
9.18146,499609,227962
11.83,524798,263544
12.0695,526217,272744
13.4765,541851,282594
17.364,572010,329654
17.7157,574258,342825
19.7807,592838,353842
25.4867,631512,418205
26.0031,633781,433287
29.0341,658878,444761
37.4095,704658,527139
38.1666,710345,551783
54.9097,793687,669266
56.0223,797270,704350
80.5951,904322,855776
82.2291,909315,905094
118.3,1.03732e+06,1.0926e+06
120.695,1.0438e+06,1.16806e+06
173.64,1.20766e+06,1.41923e+06
177.157,1.21037e+06,1.52111e+06
254.867,1.40926e+06,1.84595e+06
260.031,1.41615e+06,1.99561e+06
374.095,1.67042e+06,2.43262e+06
381.666,1.66517e+06,2.64104e+06
560.223,1.9729e+06,3.52398e+06
822.291,2.34939e+06,4.74016e+06
1206.95,2.83603e+06,6.44941e+06
1771.57,3.46341e+06,8.90698e+06

File: PI_483.1k_T-35.csv
Angular Frequency,Storage Modulus,Loss Modulus
4.17688e-08,21.4935,1317.03
6.10904e-08,37.6619,1906.91
7.47333e-08,50.152,2274.11
8.97886e-08,71.773,2793.79
1.09694e-07,107.069,3335.05
1.31842e-07,135.219,4074.19
1.6125e-07,193.413,4850.58
1.935e-07,262.658,5929.88
2.35842e-07,387.974,7089.85
2.84141e-07,535.715,8657.57
3.46633e-07,750.46,10370
4.17119e-07,1047.55,12610.6
5.0898e-07,1551.11,15063.5
6.1204e-07,2136.41,18297.4
7.47015e-07,3094.59,21745
8.98455e-07,4380.31,26339.1
1.09694e-06,6230.92,31104.2
1.31898e-06,8839.98,37354
1.61031e-06,12492.5,43604
1.93585e-06,17219.3,51305.4
2.36281e-06,23702,58734.7
2.84141e-06,31852,67157.4
3.46852e-06,41796.3,74194.2
3.97639e-06,48736.2,77859.8
4.17062e-06,53743,81594.4
5.09199e-06,67053.5,86532.5
5.83734e-06,75475.7,88200.7
6.12154e-06,81797.1,91120.4
7.47344e-06,96345.8,92459.9
8.56514e-06,105023,91676.1
8.9854e-06,111435,93700.7
1.09694e-05,119473,90041.4
1.09694e-05,125368,91722
1.25733e-05,132809,89071.7
1.31887e-05,139553,90200.6
1.61009e-05,145027,85917.7
1.61009e-05,151135,86409.6
1.84584e-05,157018,83073.8
1.93583e-05,163321,84089
2.36324e-05,166843,78886
2.36324e-05,173237,79600.1
2.70911e-05,177716,76263.8
2.84141e-05,183925,76879
3.46885e-05,191929,73289.1
3.46885e-05,185690,72220
3.97639e-05,195597,69985.9
4.17062e-05,202111,70546
5.09155e-05,208752,66926.4
5.09155e-05,202202,65895.1
5.83654e-05,211489,63976
6.12154e-05,217819,64277
7.47333e-05,223812,61144.2
7.47333e-05,217122,60235.8
8.56673e-05,225561,58145.5
8.9854e-05,232295,58775.7
0.000109694,237364,56060.5
0.000109694,230551,55037.3
0.000125745,238797,53585.6
0.000131887,245306,54073.6
0.000161009,249776,51225.9
0.000161009,242701,50674.2
0.000184568,250658,49556.8
0.000193583,257474,50003.6
0.000202257,254100,48881
0.000236324,261377,47647.4
0.000236324,254105,46766.9
0.000270907,261981,46021.6
0.000284141,268785,46520.6
0.000296872,265187,45424.8
0.000346885,272166,44308.3
0.000346885,264746,43540.1
0.000360324,270431,43740.7
0.000397639,272330,42405.3
0.000417062,279434,43360.3
0.000435742,275373,42193.3
0.000509155,282315,41316.7
0.000509155,274707,40524
0.000528842,280457,40799.2
0.000583654,282073,39584
0.000612154,289404,40564.1
0.000639597,285139,39303.5
0.000747333,291735,38205.5
0.000747333,284078,37793.9
0.000776225,289793,37800.8
0.000856673,291236,36941.1
0.00089854,298603,37915.3
0.000938795,294264,36364.6
0.00109694,300786,35576.3
0.00109694,292858,35064.7
0.00113934,298512,34972.5
0.00125745,299886,33984.9
0.00137796,302657,33682.6
0.00161009,309049,33118.5
0.00161009,300777,32532.3
0.0016723,306496,32459.7
0.00184568,307784,31564
0.00202257,310336,31255.7
0.00236324,316543,30707.4
0.00236324,308287,30337.6
0.00245466,314093,30065.5
0.00270907,315060,29235.4
0.00296872,317587,28863.5
0.00346885,323388,28701.3
0.00346885,314952,28643
0.00360293,320973,28041.1
0.00396521,322074,27619.3
0.00397639,321584,27511.4
0.00435742,324009,27008.3
0.00528835,327411,25993.7
0.00582014,328457,25579
0.00583654,327937,25777.1
0.00639597,330315,25388.6
0.00776225,333114,24472.4
0.00854265,334166,23956.5
0.00856673,333684,24259.7
0.00938795,335890,23684.1
0.0113934,338678,23118.5
0.0125392,339542,22525
0.0125745,339089,23355.4
0.0137796,341143,22511.3
0.016723,343682,21918.2
0.0184049,344710,21816.4
0.0202257,346209,21646.1
0.0245466,348612,21065.5
0.0270146,349402,21259.8
0.0296872,350919,21105.6
0.029858,349391,21013.7
0.0360293,353192,20716
0.0396521,354076,20724
0.0435742,355423,21202.8
0.0438256,354186,20889
0.0528835,357644,20957
0.0582014,358683,20763
0.0639597,359998,21704.1
0.0643262,358371,21218.1
0.0776225,362050,21608.2
0.0854265,362910,21682.5
0.0944201,362754,21894.1
0.113934,366354,23081.7
0.125392,367080,23519.6
0.138589,367667,23993
0.16723,370843,25474.9
0.184049,371906,25740.4
0.20342,371882,26482.9
0.245466,375607,29186.2
0.270146,376617,29359.6
0.29858,376785,30571.4
0.396521,381832,34579.3
0.438256,382278,36268.5
0.582014,387959,42129.1
0.643262,388390,44062.4
0.854265,395169,52017.6
0.944201,395926,55303.3
1.25392,403984,65383.6
1.38589,405723,69129.4
2.0342,417563,88103.3
2.9858,433422,112301
3.87824,445400,135987
4.38256,453771,143979
5.69248,470407,173690
6.43262,480744,183254
8.35529,501919,221534
9.44201,514653,233277
12.2642,541903,281322
18.0012,592771,357695
26.4221,655908,454340
38.7824,735040,578333
56.9248,833162,739612
83.5529,951932,946200
122.642,1.09922e+06,1.22069e+06

File: PI_1131k_T-35.csv
Angular Frequency,Storage Modulus,Loss Modulus
4.18118e-08,3461.39,22800.8
6.11533e-08,6725.25,32506.8
8.98812e-08,13032.3,45345.8
1.31977e-07,24488.5,61063.7
1.61466e-07,32227.3,68963.7
1.937e-07,43090.6,77512.8
2.36157e-07,54583.1,84548.6
2.84434e-07,69292.5,90902.1
3.47096e-07,83433.6,95165.3
4.17549e-07,101403,97910.2
5.0966e-07,114931,98608.6
6.12671e-07,132724,97426.9
7.48014e-07,144568,95419.4
8.99381e-07,161310,91315.3
1.09841e-06,170499,88565.7
1.09841e-06,170581,88582.1
1.32034e-06,184821,83582.3
1.61246e-06,192454,80731.4
1.61246e-06,192651,80805.2
1.93785e-06,204886,75676.9
2.36597e-06,211695,73025.1
2.36597e-06,211564,72980
2.84434e-06,222473,67949.4
3.47316e-06,228403,65648.3
3.47316e-06,228288,65539.3
4.17492e-06,237760,60520.4
5.0988e-06,243004,58574.9
5.0988e-06,242857,58606.8
6.12785e-06,251090,54102.4
7.48344e-06,255367,52156.4
7.48344e-06,255597,52313.9
8.99466e-06,262643,48280.8
1.09841e-05,266730,46904.6
1.09841e-05,266484,46817.7
1.16553e-05,268838,46041.7
1.32023e-05,273010,43460.9
1.41256e-05,274576,43875.8
1.61224e-05,276470,42174.3
1.61224e-05,276765,42268.5
1.71063e-05,278539,41622.1
1.93782e-05,282303,39380
2.0736e-05,283844,39686.3
2.3664e-05,285561,38242.4
2.3664e-05,285881,38278.5
2.51083e-05,287457,37770.2
2.84434e-05,290745,35819.9
3.04416e-05,292263,36146.5
3.47349e-05,293997,34774.5
3.47349e-05,294104,34924.5
3.68539e-05,295660,34540.5
4.17492e-05,298704,32843.6
4.46787e-05,300352,33580.2
5.09836e-05,301933,32061.7
5.09836e-05,301589,32101.1
5.40932e-05,303340,31732
6.12785e-05,306032,30382.6
6.40901e-05,307981,30735.7
6.55786e-05,307567,30553.1
7.48333e-05,308894,29708
7.48333e-05,309353,29661.3
7.93998e-05,310532,29189.6
8.99466e-05,313102,27882.6
9.4088e-05,314876,28306.1
9.62563e-05,314591,28157.5
0.000109841,316075,27337.1
0.000109841,315780,27274.8
0.000116542,317227,26943.6
0.000132023,319479,25777
0.000138092,321289,26046
0.000141283,320966,25864
0.000161224,322421,25031.7
0.000167628,324551,25037.1
0.00017106,323543,24890.4
0.000193782,325396,23747.9
0.000202688,327283,23949.9
0.000207379,326968,23790.5
0.00023664,328119,23108.4
0.000246072,330189,23009
0.000251083,329110,22837.3
0.000284434,330829,21951.1
0.000297506,332714,21937.8
0.00030439,332398,21844.3
0.000347349,333464,21261.3
0.000361248,335312,21200.7
0.000368539,334424,21014.9
0.000417492,335771,20336.6
0.000436672,337745,20224.4
0.000446781,337448,20154.5
0.000509836,338235,19602
0.000530199,340141,19420.1
0.000540932,339258,19274.2
0.000612785,340425,19046.5
0.000640941,342392,18585
0.000655786,342134,18465.6
0.000748333,342818,18105
0.000778216,344473,17790.2
0.000793998,343746,17720.4
0.000856788,344928,17489.6
0.000899466,344681,17698.7
0.000940778,346664,17068.7
0.000962563,346395,17023.5
0.00109841,346983,16776.9
0.00114227,348612,16439.1
0.00116542,347848,16461.4
0.00125774,348870,16188.2
0.00138088,350687,15954.7
0.00141283,350318,15659.4
0.00161224,350746,15622.6
0.00167659,352411,15230.5
0.0017106,351553,15241.1
0.00184643,352575,15039.8
0.00202684,354236,14652.5
0.00207379,353913,14628.7
0.0023664,354337,14744.6
0.00246087,355952,14140.6
0.00251083,355040,14316.4
0.00270998,356147,13925.6
0.00297506,357644,13728.5
0.0030439,357308,13632.7
0.00361209,359116,13315.5
0.00368539,358282,13595.6
0.00397766,359376,13072.6
0.00436672,360801,12881.2
0.00446781,360443,13029
0.00530183,362197,12485.9
0.00540932,361288,13062.5
0.00583841,362283,12384.8
0.00640941,363780,12334.4
0.00655786,363371,12382
0.007782,365104,12038.9
0.00856947,365199,11901.3
0.00940778,366527,11832.3
0.0114227,367762,11754.7
0.0125782,367954,11564.1
0.0138088,369185,11655.7
0.0167659,370346,11562.5
0.0184623,370538,11501.4
0.0202684,371691,11787.7
0.0246087,373023,11684.8
0.027099,372960,11900.4
0.0297506,374287,12280.9
0.0361209,375313,12261.5
0.0397758,375544,12545.4
0.0436672,376651,13163.9
0.043998,375184,12746.2
0.0530183,378026,13239.2
0.0583841,378175,13608.3
0.0645791,377955,13906.6
0.07782,380638,14870.9
0.0856947,380806,15196.5
0.0947884,380558,15785.4
0.114227,383435,17152.8
0.125782,383589,17674.8
0.139131,383398,18344
0.167659,386488,20408.8
0.184623,386791,20968.1
0.204217,386641,22216.4
0.27099,390438,25681.5
0.299749,390532,27251.2
0.397758,394817,32119
0.43998,395199,34352.4
0.583841,400118,40747.9
0.645791,401095,43597.7
0.856947,406909,52375.7
0.947884,408140,55969.5
1.39131,417887,72595
2.04217,430710,93976.2
2.65556,437031,110340
2.99749,447404,121242
3.89783,457272,142432
4.3998,469562,155918
5.72134,483399,182946
6.45791,498460,199476
8.39764,516550,234516
12.326,558835,299048
18.0921,612880,379810
26.5556,679947,483653
38.9783,763580,616107
57.2134,865591,785705
83.9764,993392,1.00961e+06