Folder: pyRheo/demos/data/polystyrene

Note: README.md
# pyRheo

**pyRheo** is a Python package for rheological modeling, providing tools for creep, stress relaxation, oscillation, and rotation models. This package is designed to help researchers and engineers analyze and model the behavior of viscoelastic materials.

## Table of Contents

- [Installation](#installation)
- [Usage](#usage)
  - [Creep Model](#creep-model)
  - [Stress Relaxation Model](#stress-relaxation-model)
  - [Oscillation Model](#oscillation-model)
  - [Rotation Model](#rotation-model)
- [Demo Scripts](#demo-scripts)
- [GUI](#gui)
- [Contributing](#contributing)
- [License](#license)

## Installation

You can install the `pyRheo` package directly from GitHub using pip:

```sh
pip install git+https://github.com/mirandi1/pyRheo.git
```

## Usage
### Importing the package
Once the package has been installed, you can simply import its modules:

```python
from pyRheo import CreepModel, RelaxationModel, OscillationModel, RotationModel
```

### Modeling data with pyRheo
To begin modeling data, first define a model object:

```python
model = RelaxationModel(model="FractionalZenerSolidS", initial_guesses="random", 
                        num_initial_guesses=10, 
                        minimization_algorithm="Powell", 
                        mittag_leffler_type="Pade32"
                       )
```

fit the data with the model object:

```python
model.fit(time, G_relax)
```

Here, `time` and `G_relax` are Python NumPy arrays of the same size.

### Output the model results

```python
model.get_parameters()
model.print_parameters()
model.print_error()
```

### Predicting data and plotting
Plot the original data and the fitting results with 
```python
model.plot(time, G_relax)
```

or use the fitted model to predict data over a customized time range

```python
time_predict = np.logspace(np.min(np.log10(time)), np.max(np.log10(time)), 100)
G_relax_predict = model.predict(time_predict)
```

File: oscillation_ps160_data.csv
Angular Frequency	Storage Modulus	Loss Modulus
300	2.93E+05	1.60E+05
215	2.71E+05	1.35E+05
154	2.52E+05	1.15E+05
111	2.36E+05	98559
79.3	2.21E+05	85896
56.9	2.08E+05	76003
40.8	1.96E+05	68353
29.3	1.85E+05	62496
21	1.75E+05	58069
15	1.64E+05	54740
10.8	1.54E+05	52214
7.74	1.44E+05	50222
5.55	1.35E+05	48697
3.98	1.25E+05	47344
2.85	1.15E+05	46179
2.05	1.05E+05	45141
1.47	95850	43865
1.05	86569	42566
0.754	77492	41148
0.541	68763	39400
0.388	60121	37746
0.278	52112	35382
0.199	44530	33081
0.143	37575	30353
0.103	31344	27788
0.0735	25703	25069
0.0527	20659	22222
0.0378	16408	19456
0.0271	12746	16811
0.0194	9670.3	14283
0.0139	7227.8	11940
0.01	5293.2	9828.9

File: oscillation_ps175_data.csv
Angular Frequency	Storage Modulus	Loss Modulus
300	2.10E+05	75546
215	1.98E+05	68353
154	1.87E+05	62821
111	1.76E+05	58603
79.3	1.65E+05	55441
56.9	1.55E+05	53019
40.8	1.45E+05	51139
29.3	1.35E+05	49646
21	1.25E+05	48344
15	1.15E+05	47146
10.8	1.05E+05	45931
7.74	95099	44660
5.55	85552	43221
3.98	76247	41573
2.85	67320	39723
2.05	58796	37685
1.47	50751	35416
1.05	43335	32943
0.754	36477	30319
0.541	30196	27596
0.388	24587	24760
0.278	19651	21835
0.199	15377	19021
0.143	11916	16328
0.103	8974.5	13787
0.0735	6647.5	11486
0.0527	4807.3	9382.1
0.0378	3422.8	7574.8
0.0271	2386.3	6011.4
0.0194	1614.7	4694.3
0.0139	1077.4	3635.5
0.01	707.65	2783.3