Folder: pyRheo/demos/data/time-temp-water

Note: README.md
# pyRheo

**pyRheo** is a Python package for rheological modeling, providing tools for creep, stress relaxation, oscillation, and rotation models. This package is designed to help researchers and engineers analyze and model the behavior of viscoelastic materials.

## Table of Contents

- [Installation](#installation)
- [Usage](#usage)
  - [Creep Model](#creep-model)
  - [Stress Relaxation Model](#stress-relaxation-model)
  - [Oscillation Model](#oscillation-model)
  - [Rotation Model](#rotation-model)
- [Demo Scripts](#demo-scripts)
- [GUI](#gui)
- [Contributing](#contributing)
- [License](#license)

## Installation

You can install the `pyRheo` package directly from GitHub using pip:

```sh
pip install git+https://github.com/mirandi1/pyRheo.git
```

## Usage
### Importing the package
Once the package has been installed, you can simply import its modules:

```python
from pyRheo import CreepModel, RelaxationModel, OscillationModel, RotationModel
```

### Modeling data with pyRheo
To begin modeling data, first define a model object:

```python
model = RelaxationModel(model="FractionalZenerSolidS", initial_guesses="random", 
                        num_initial_guesses=10, 
                        minimization_algorithm="Powell", 
                        mittag_leffler_type="Pade32"
                       )
```

fit the data with the model object:

```python
model.fit(time, G_relax)
```

Here, `time` and `G_relax` are Python NumPy arrays of the same size.

### Output the model results

```python
model.get_parameters()
model.print_parameters()
model.print_error()
```

### Predicting data and plotting
Plot the original data and the fitting results with 
```python
model.plot(time, G_relax)
```

or use the fitted model to predict data over a customized time range

```python
time_predict = np.logspace(np.min(np.log10(time)), np.max(np.log10(time)), 100)
G_relax_predict = model.predict(time_predict)
```

File: ttw_70_20.csv
Angular Frequency,Storage Modulus,Loss Modulus
0.1,1710.0,156.0
0.2,1770.0,146.0
0.3,1800.0,142.0
0.4,1820.0,139.0
0.6,1850.0,136.0
0.8,1870.0,134.0
1.0,1890.0,133.0
2.0,1940.0,128.0
2.5,1950.0,127.0
3.0,1970.0,127.0
4.0,1980.0,126.0
5.0,2000.0,125.0
6.0,2010.0,124.0
7.0,2020.0,123.0
8.0,2010.0,119.0
10.0,2050.0,124.0
,,
,,
,,
,,
,,
,,
,,
,,
,,
,,
,,
,,
,,
,,
,,
,,
,,
,,
,,
,,
,,
,,
,,
,,
,,
,,
,,
,,
,,
,,
,,
,,
,,
,,
,,
,,
,,
,,
,,
,,
,,
,,
,,
,,
,,
,,
,,
,,
,,
,,
,,
,,
,,
,,
,,
,,
,,
,,
,,
,,
,,
,,
,,
,,
,,
,,
,,
,,
,,
,,
,,
,,
,,
,,
,,
,,
,,
,,
,,
,,
,,
,,
,,
,,
,,
,,
,,
,,
,,
,,
,,
,,
,,
,,
,,
,,

File: ttw_70_25.csv
Angular Frequency,Storage Modulus,Loss Modulus
0.1,1810.0,139.0
0.2,1870.0,133.0
0.3,1910.0,129.0
0.4,1920.0,126.0
0.6,1940.0,123.0
0.8,1960.0,120.0
1.0,1970.0,119.0
2.0,2000.0,121.0
2.5,2030.0,116.0
3.0,2040.0,116.0
4.0,2060.0,114.0
5.0,2070.0,114.0
6.0,2080.0,113.0
7.0,2090.0,115.0
8.0,2090.0,112.0
10.0,2100.0,114.0
,,
,,
,,
,,
,,
,,
,,
,,
,,
,,
,,
,,
,,
,,
,,
,,
,,
,,
,,
,,
,,
,,
,,
,,
,,
,,
,,
,,
,,
,,
,,
,,
,,
,,
,,
,,
,,
,,
,,
,,
,,
,,
,,
,,
,,
,,
,,
,,
,,
,,
,,
,,
,,
,,
,,
,,
,,
,,
,,
,,
,,
,,
,,
,,
,,
,,
,,
,,
,,
,,
,,
,,
,,
,,
,,
,,
,,
,,
,,
,,
,,
,,
,,
,,
,,
,,
,,
,,
,,
,,
,,
,,
,,
,,
,,
,,

File: ttw_70_30.csv
Angular Frequency,Storage Modulus,Loss Modulus
0.1,1920.0,131.0
0.2,1980.0,125.0
0.3,2020.0,123.0
0.4,2050.0,121.0
0.6,2070.0,118.0
0.8,2080.0,116.0
1.0,2090.0,115.0
2.0,2130.0,112.0
2.5,2140.0,112.0
3.0,2150.0,111.0
4.0,2160.0,110.0
5.0,2170.0,110.0
6.0,2180.0,111.0
7.0,2150.0,105.0
8.0,2180.0,126.0
10.0,2200.0,111.0
,,
,,
,,
,,
,,
,,
,,
,,
,,
,,
,,
,,
,,
,,
,,
,,
,,
,,
,,
,,
,,
,,
,,
,,
,,
,,
,,
,,
,,
,,
,,
,,
,,
,,
,,
,,
,,
,,
,,
,,
,,
,,
,,
,,
,,
,,
,,
,,
,,
,,
,,
,,
,,
,,
,,
,,
,,
,,
,,
,,
,,
,,
,,
,,
,,
,,
,,
,,
,,
,,
,,
,,
,,
,,
,,
,,
,,
,,
,,
,,
,,
,,
,,
,,
,,
,,
,,
,,
,,
,,
,,
,,
,,
,,
,,
,,

File: ttw_70_35.csv
Angular Frequency,Storage Modulus,Loss Modulus
0.1,1970.0,114.0
0.2,2010.0,112.0
0.3,2010.0,112.0
0.4,2040.0,113.0
0.6,2040.0,106.0
0.8,2090.0,106.0
1.0,2060.0,103.0
2.0,2090.0,99.7
2.5,2110.0,99.5
3.0,2120.0,98.8
4.0,2190.0,99.3
5.0,2180.0,102.0
6.0,2180.0,101.0
7.0,2150.0,96.3
8.0,2160.0,95.7
10.0,2170.0,95.7
,,
,,
,,
,,
,,
,,
,,
,,
,,
,,
,,
,,
,,
,,
,,
,,
,,
,,
,,
,,
,,
,,
,,
,,
,,
,,
,,
,,
,,
,,
,,
,,
,,
,,
,,
,,
,,
,,
,,
,,
,,
,,
,,
,,
,,
,,
,,
,,
,,
,,
,,
,,
,,
,,
,,
,,
,,
,,
,,
,,
,,
,,
,,
,,
,,
,,
,,
,,
,,
,,
,,
,,
,,
,,
,,
,,
,,
,,
,,
,,
,,
,,
,,
,,
,,
,,
,,
,,
,,
,,
,,
,,
,,
,,
,,
,,

File: ttw_70_40.csv
Angular Frequency,Storage Modulus,Loss Modulus
0.1,2010.0,111.0
0.2,2050.0,106.0
0.3,2080.0,103.0
0.4,2090.0,109.0
0.6,2120.0,102.0
0.8,2130.0,101.0
1.0,2150.0,99.7
2.0,2180.0,96.8
2.5,2160.0,93.2
3.0,2170.0,99.9
4.0,2210.0,98.9
5.0,2180.0,94.1
6.0,2230.0,97.0
7.0,2190.0,94.7
8.0,2250.0,93.0
10.0,2190.0,95.7
,,
,,
,,
,,
,,
,,
,,
,,
,,
,,
,,
,,
,,
,,
,,
,,
,,
,,
,,
,,
,,
,,
,,
,,
,,
,,
,,
,,
,,
,,
,,
,,
,,
,,
,,
,,
,,
,,
,,
,,
,,
,,
,,
,,
,,
,,
,,
,,
,,
,,
,,
,,
,,
,,
,,
,,
,,
,,
,,
,,
,,
,,
,,
,,
,,
,,
,,
,,
,,
,,
,,
,,
,,
,,
,,
,,
,,
,,
,,
,,
,,
,,
,,
,,
,,
,,
,,
,,
,,
,,
,,
,,
,,
,,
,,
,,

File: ttw_70_45.csv
Angular Frequency,Storage Modulus,Loss Modulus
0.1,2070.0,106.0
0.2,2100.0,100.0
0.3,2100.0,99.5
0.4,2110.0,99.1
0.6,2120.0,98.3
0.8,2160.0,94.2
1.0,2170.0,93.1
2.0,2210.0,91.9
2.5,2210.0,94.0
3.0,2230.0,91.4
4.0,2220.0,91.8
5.0,2250.0,91.9
6.0,2250.0,92.9
7.0,2230.0,89.2
8.0,2250.0,108.0
10.0,2270.0,91.3
,,
,,
,,
,,
,,
,,
,,
,,
,,
,,
,,
,,
,,
,,
,,
,,
,,
,,
,,
,,
,,
,,
,,
,,
,,
,,
,,
,,
,,
,,
,,
,,
,,
,,
,,
,,
,,
,,
,,
,,
,,
,,
,,
,,
,,
,,
,,
,,
,,
,,
,,
,,
,,
,,
,,
,,
,,
,,
,,
,,
,,
,,
,,
,,
,,
,,
,,
,,
,,
,,
,,
,,
,,
,,
,,
,,
,,
,,
,,
,,
,,
,,
,,
,,
,,
,,
,,
,,
,,
,,
,,
,,
,,
,,
,,
,,

File: ttw_70_50.csv
Angular Frequency,Storage Modulus,Loss Modulus
0.1,2050.0,93.2
0.2,2050.0,89.5
0.3,2070.0,89.9
0.4,2090.0,88.5
0.6,2160.0,88.1
0.8,2150.0,86.6
1.0,2180.0,92.8
2.0,2180.0,84.9
2.5,2190.0,84.7
3.0,2200.0,84.5
4.0,2200.0,84.2
5.0,2210.0,83.7
6.0,2220.0,82.0
7.0,2220.0,75.5
8.0,2210.0,54.4
10.0,2230.0,84.9
,,
,,
,,
,,
,,
,,
,,
,,
,,
,,
,,
,,
,,
,,
,,
,,
,,
,,
,,
,,
,,
,,
,,
,,
,,
,,
,,
,,
,,
,,
,,
,,
,,
,,
,,
,,
,,
,,
,,
,,
,,
,,
,,
,,
,,
,,
,,
,,
,,
,,
,,
,,
,,
,,
,,
,,
,,
,,
,,
,,
,,
,,
,,
,,
,,
,,
,,
,,
,,
,,
,,
,,
,,
,,
,,
,,
,,
,,
,,
,,
,,
,,
,,
,,
,,
,,
,,
,,
,,
,,
,,
,,
,,
,,
,,
,,

File: ttw_80_20.csv
Angular Frequency,Storage Modulus,Loss Modulus
0.1,661.707,209.404
0.2,733.724,205.616
0.3,777.998,204.191
0.4,797.919,201.661
0.6,840.404,200.48
0.8,871.167,199.257
1.0,898.609,198.296
2.0,976.392,194.161
2.5,999.178,191.223
3.0,1014.54,189.043
4.0,1042.81,186.294
5.0,1063.55,183.682
6.0,1082.07,182.454
7.0,1103.3,182.749
8.0,1134.2,185.784
10.0,1126.02,176.896
,,
,,
,,
,,
,,
,,
,,
,,
,,
,,
,,
,,
,,
,,
,,
,,
,,
,,
,,
,,
,,
,,
,,
,,
,,
,,
,,
,,
,,
,,
,,
,,
,,
,,
,,
,,
,,
,,
,,
,,
,,
,,
,,
,,
,,
,,
,,
,,
,,
,,
,,
,,
,,
,,
,,
,,
,,
,,
,,
,,
,,
,,
,,
,,
,,
,,
,,
,,
,,
,,
,,
,,
,,
,,
,,
,,
,,
,,

File: ttw_80_25.csv
Angular Frequency,Storage Modulus,Loss Modulus
0.1,1152.54,164.605
0.2,1215.51,155.219
0.3,1257.34,155.042
0.4,1289.84,153
0.6,1317.82,149.65
0.8,1334.43,147.512
1.0,1346.79,146.914
2.0,1396.33,141.768
2.5,1410.43,140.833
3.0,1421.9,139.895
4.0,1440.99,139.005
5.0,1458.39,138.417
6.0,1470.13,137.531
7.0,1477.43,133.95
8.0,1472.33,119.732
10.0,1485.06,135.626
,,
,,
,,
,,
,,
,,
,,
,,
,,
,,
,,
,,
,,
,,
,,
,,
,,
,,
,,
,,
,,
,,
,,
,,
,,
,,
,,
,,
,,
,,
,,
,,
,,
,,
,,
,,
,,
,,
,,
,,
,,
,,
,,
,,
,,
,,
,,
,,
,,
,,
,,
,,
,,
,,
,,
,,
,,
,,
,,
,,
,,
,,
,,
,,
,,
,,
,,
,,
,,
,,
,,
,,
,,
,,
,,
,,
,,
,,

File: ttw_80_30.csv
Angular Frequency,Storage Modulus,Loss Modulus
0.1,1354.53,141.95
0.2,1393.03,135.069
0.3,1425.13,133.178
0.4,1459.94,132.449
0.6,1488.32,131.385
0.8,1498.72,130.166
1.0,1506.61,129.679
2.0,1545.79,126.328
2.5,1556.67,125.808
3.0,1565.99,125.325
4.0,1579.83,124.97
5.0,1591.0,124.969
6.0,1599.85,125.661
7.0,1605.9,129.866
8.0,1608.42,150.267
10.0,1620.87,124.597
,,
,,
,,
,,
,,
,,
,,
,,
,,
,,
,,
,,
,,
,,
,,
,,
,,
,,
,,
,,
,,
,,
,,
,,
,,
,,
,,
,,
,,
,,
,,
,,
,,
,,
,,
,,
,,
,,
,,
,,
,,
,,
,,
,,
,,
,,
,,
,,
,,
,,
,,
,,
,,
,,
,,
,,
,,
,,
,,
,,
,,
,,
,,
,,
,,
,,
,,
,,
,,
,,
,,
,,
,,
,,
,,
,,
,,
,,

File: ttw_80_35.csv
Angular Frequency,Storage Modulus,Loss Modulus
0.1,1572.58,134.999
0.2,1616.79,129.221
0.3,1632.47,126.011
0.4,1641.18,124.806
0.6,1668.24,123.151
0.8,1694.89,123.024
1.0,1719.05,122.552
2.0,1760.32,121.57
2.5,1774.81,121.242
3.0,1788.53,121.641
4.0,1804.19,121.496
5.0,1815.09,121.57
6.0,1821.83,120.214
7.0,1823.31,117.051
8.0,1810.18,104.346
10.0,1827.92,119.73
,,
,,
,,
,,
,,
,,
,,
,,
,,
,,
,,
,,
,,
,,
,,
,,
,,
,,
,,
,,
,,
,,
,,
,,
,,
,,
,,
,,
,,
,,
,,
,,
,,
,,
,,
,,
,,
,,
,,
,,
,,
,,
,,
,,
,,
,,
,,
,,
,,
,,
,,
,,
,,
,,
,,
,,
,,
,,
,,
,,
,,
,,
,,
,,
,,
,,
,,
,,
,,
,,
,,
,,
,,
,,
,,
,,
,,
,,

File: ttw_80_40.csv
Angular Frequency,Storage Modulus,Loss Modulus
0.1,1656.66,128.37
0.2,1700.09,122.573
0.3,1716.75,119.659
0.4,1724.77,117.995
0.6,1742.13,116.384
0.8,1758.73,116.142
1.0,1773.1,115.248
2.0,1809.45,114.055
2.5,1821.87,113.786
3.0,1833.68,113.992
4.0,1847.41,113.871
5.0,1856.67,113.452
6.0,1862.1,114.25
7.0,1863,115.589
8.0,1856.09,121.878
10.0,1860.11,112.891
,,
,,
,,
,,
,,
,,
,,
,,
,,
,,
,,
,,
,,
,,
,,
,,
,,
,,
,,
,,
,,
,,
,,
,,
,,
,,
,,
,,
,,
,,
,,
,,
,,
,,
,,
,,
,,
,,
,,
,,
,,
,,
,,
,,
,,
,,
,,
,,
,,
,,
,,
,,
,,
,,
,,
,,
,,
,,
,,
,,
,,
,,
,,
,,
,,
,,
,,
,,
,,
,,
,,
,,
,,
,,
,,
,,
,,
,,

File: ttw_80_45.csv
Angular Frequency,Storage Modulus,Loss Modulus
0.1,1733.23,123.981
0.2,1772.32,121.442
0.3,1799.56,119.016
0.4,1814.93,118.323
0.6,1841.62,117.736
0.8,1858.03,117.283
1.0,1870.85,116.589
2.0,1905.02,116.052
2.5,1915.87,115.614
3.0,1926.36,116.021
4.0,1939.71,116.154
5.0,1949.55,116.01
6.0,1956.95,116.943
7.0,1961.42,117.956
8.0,1961.28,121.276
10.0,1968.93,116.977
,,
,,
,,
,,
,,
,,
,,
,,
,,
,,
,,
,,
,,
,,
,,
,,
,,
,,
,,
,,
,,
,,
,,
,,
,,
,,
,,
,,
,,
,,
,,
,,
,,
,,
,,
,,
,,
,,
,,
,,
,,
,,
,,
,,
,,
,,
,,
,,
,,
,,
,,
,,
,,
,,
,,
,,
,,
,,
,,
,,
,,
,,
,,
,,
,,
,,
,,
,,
,,
,,
,,
,,
,,
,,
,,
,,
,,
,,

File: ttw_85_20.csv
Angular Frequency,Storage Modulus,Loss Modulus
0.1,485.139,193.966
0.2,558.967,196.006
0.3,606.565,198.209
0.4,637.33,200.649
0.6,684.778,200.283
0.8,713.805,200.989
1.0,739.695,200.922
2.0,820.196,198.335
2.5,848.429,198.221
3.0,877.885,199.718
4.0,916.669,200.279
5.0,947.584,200.397
6.0,966.431,198.864
7.0,981.026,197.666
8.0,1019.24,203.508
10.0,1016.55,195.978
,,
,,
,,
,,
,,
,,
,,
,,
,,
,,
,,
,,
,,
,,
,,
,,
,,
,,
,,
,,
,,
,,
,,
,,
,,
,,
,,
,,
,,
,,
,,
,,
,,
,,
,,
,,
,,
,,
,,
,,
,,
,,
,,
,,
,,
,,
,,
,,
,,
,,
,,
,,
,,
,,
,,
,,
,,
,,
,,
,,
,,
,,

File: ttw_85_25.csv
Angular Frequency,Storage Modulus,Loss Modulus
0.1,1048.04,186.614
0.2,1110.2,180.076
0.3,1150.13,175.601
0.4,1169.59,173.274
0.6,1208.02,169.69
0.8,1244.41,167.979
1.0,1273.84,168.33
2.0,1334.45,163.313
2.5,1356.84,162.488
3.0,1369.61,161.11
4.0,1392.83,158.894
5.0,1406.53,157.088
6.0,1416.75,156.031
7.0,1425.92,154.424
8.0,1436.97,150.864
10.0,1439.91,153.705
,,
,,
,,
,,
,,
,,
,,
,,
,,
,,
,,
,,
,,
,,
,,
,,
,,
,,
,,
,,
,,
,,
,,
,,
,,
,,
,,
,,
,,
,,
,,
,,
,,
,,
,,
,,
,,
,,
,,
,,
,,
,,
,,
,,
,,
,,
,,
,,
,,
,,
,,
,,
,,
,,
,,
,,
,,
,,
,,
,,
,,
,,

File: ttw_85_30.csv
Angular Frequency,Storage Modulus,Loss Modulus
0.1,1313.88,161.432
0.2,1383.32,154.524
0.3,1413.05,151.089
0.4,1420.77,148.179
0.6,1449.13,145.754
0.8,1469.68,145.347
1.0,1481.84,144.798
2.0,1528.39,140.356
2.5,1539.99,139.342
3.0,1549.78,138.512
4.0,1564.26,137.41
5.0,1575.63,137.23
6.0,1585.33,136.964
7.0,1593.98,138.11
8.0,1601.2,143.7
10.0,1615.87,137.139
,,
,,
,,
,,
,,
,,
,,
,,
,,
,,
,,
,,
,,
,,
,,
,,
,,
,,
,,
,,
,,
,,
,,
,,
,,
,,
,,
,,
,,
,,
,,
,,
,,
,,
,,
,,
,,
,,
,,
,,
,,
,,
,,
,,
,,
,,
,,
,,
,,
,,
,,
,,
,,
,,
,,
,,
,,
,,
,,
,,
,,
,,

File: ttw_85_35.csv
Angular Frequency,Storage Modulus,Loss Modulus
0.1,1539.5,148.032
0.2,1579.35,141.747
0.3,1599.52,139.477
0.4,1622.81,140.491
0.6,1660.21,139.315
0.8,1694.27,139.021
1.0,1711.39,137.774
2.0,1755.14,137.055
2.5,1767.12,136.314
3.0,1776.56,136.365
4.0,1789.41,135.9
5.0,1798.95,136.473
6.0,1805.87,137.039
7.0,1812.53,142.246
8.0,1825.25,161.674
10.0,1816.69,134.037
,,
,,
,,
,,
,,
,,
,,
,,
,,
,,
,,
,,
,,
,,
,,
,,
,,
,,
,,
,,
,,
,,
,,
,,
,,
,,
,,
,,
,,
,,
,,
,,
,,
,,
,,
,,
,,
,,
,,
,,
,,
,,
,,
,,
,,
,,
,,
,,
,,
,,
,,
,,
,,
,,
,,
,,
,,
,,
,,
,,
,,
,,

File: ttw_85_40.csv
Angular Frequency,Storage Modulus,Loss Modulus
0.1,1994.92,167.99
0.2,2041.325,162.212
0.3,2067.84,160.416
0.4,2075.31,158.307
0.6,2105.8,156.386
0.8,2140.93,156.123
1.0,2162.2,154.99
2.0,2212.15,154.748
2.5,2229.58,154.636
3.0,2247.55,155.206
4.0,2267.78,155.435
5.0,2284.1,156.139
6.0,2297.37,159.839
7.0,2308.76,169.374
8.0,2317.53,202.909
10.0,2328.02,156.163
,,
,,
,,
,,
,,
,,
,,
,,
,,
,,
,,
,,
,,
,,
,,
,,
,,
,,
,,
,,
,,
,,
,,
,,
,,
,,
,,
,,
,,
,,
,,
,,
,,
,,
,,
,,
,,
,,
,,
,,
,,
,,
,,
,,
,,
,,
,,
,,
,,
,,
,,
,,
,,
,,
,,
,,
,,
,,
,,
,,
,,
,,

File: ttw_90_20.csv
Angular Frequency,Storage Modulus,Loss Modulus
0.1,,
0.2,419.3,168.01
0.3,461.69,173.03
0.4,488.33,176.96
0.6,525.47,178.3
0.8,552.4,180.47
1.0,571.39,178.18
2.0,648.31,183.66
2.5,680.19,186.65
3.0,697.73,186.59
4.0,728.57,186.36
5.0,748.71,185.54
6.0,779.6,188.59
7.0,793.15,187.75
8.0,824.32,195.07
10.0,831.88,188.81
,,
,,
,,
,,
,,
,,
,,
,,
,,
,,
,,
,,
,,
,,
,,
,,
,,
,,
,,
,,
,,
,,
,,
,,
,,
,,
,,
,,
,,
,,
,,
,,
,,
,,
,,
,,
,,
,,
,,
,,
,,
,,
,,
,,
,,
,,
,,
,,
,,
,,
,,
,,
,,
,,
,,
,,
,,
,,
,,
,,
,,
,,
,,

File: ttw_90_22.csv
Angular Frequency,Storage Modulus,Loss Modulus
0.1,810.62,174.34
0.2,871.19,171.46
0.3,908.52,170.46
0.4,935.8,171.06
0.6,971.48,168.72
0.8,995.23,167.47
1.0,1014.51,167.06
2.0,1069.67,163.52
2.5,1088.09,162.47
3.0,1103.83,162.23
4.0,1128.15,160.96
5.0,1147.41,160.69
6.0,1165.63,160.75
7.0,1176.61,159.36
8.0,1171.27,155.24
10.0,1209.47,160.49
,,
,,
,,
,,
,,
,,
,,
,,
,,
,,
,,
,,
,,
,,
,,
,,
,,
,,
,,
,,
,,
,,
,,
,,
,,
,,
,,
,,
,,
,,
,,
,,
,,
,,
,,
,,
,,
,,
,,
,,
,,
,,
,,
,,
,,
,,
,,
,,
,,
,,
,,
,,
,,
,,
,,
,,
,,
,,
,,
,,
,,
,,
,,

File: ttw_90_25.csv
Angular Frequency,Storage Modulus,Loss Modulus
0.1,1048.29,167.41
0.2,1105.99,160.24
0.3,1140.51,160.56
0.4,1170.43,159.05
0.6,1206.77,158.08
0.8,1232.46,157.79
1.0,1253.86,158.83
2.0,1306.62,157.69
2.5,1325.45,154.32
3.0,1338.43,153.61
4.0,1359.26,152.98
5.0,1378.34,152.78
6.0,1391.35,152.12
7.0,1401.22,150.68
8.0,1397.39,147.26
10.0,1416.56,149.75
,,
,,
,,
,,
,,
,,
,,
,,
,,
,,
,,
,,
,,
,,
,,
,,
,,
,,
,,
,,
,,
,,
,,
,,
,,
,,
,,
,,
,,
,,
,,
,,
,,
,,
,,
,,
,,
,,
,,
,,
,,
,,
,,
,,
,,
,,
,,
,,
,,
,,
,,
,,
,,
,,
,,
,,
,,
,,
,,
,,
,,
,,
,,

File: ttw_90_27.csv
Angular Frequency,Storage Modulus,Loss Modulus
0.1,1215.68,166.42
0.2,1285.61,163.67
0.3,1325.8,164.07
0.4,1357.6,162.4
0.6,1385.42,160.0
0.8,1403.32,157.87
1.0,1415.04,157.45
2.0,1466.78,154.25
2.5,1481.01,153.45
3.0,1491.8,152.84
4.0,1513.68,152.62
5.0,1527.84,151.99
6.0,1539.23,151.37
7.0,1548.76,149.69
8.0,1557.48,143.9
10.0,1559.6,149.7
,,
,,
,,
,,
,,
,,
,,
,,
,,
,,
,,
,,
,,
,,
,,
,,
,,
,,
,,
,,
,,
,,
,,
,,
,,
,,
,,
,,
,,
,,
,,
,,
,,
,,
,,
,,
,,
,,
,,
,,
,,
,,
,,
,,
,,
,,
,,
,,
,,
,,
,,
,,
,,
,,
,,
,,
,,
,,
,,
,,
,,
,,
,,

File: ttw_90_30.csv
Angular Frequency,Storage Modulus,Loss Modulus
0.1,1304.07,154.24
0.2,1355.03,150.91
0.3,1383.71,149.52
0.4,1405.58,146.2
0.6,1421.87,145.74
0.8,1443.68,144.58
1.0,1457.7,143.82
2.0,1504.8,142.2
2.5,1518.67,141.94
3.0,1530.14,141.78
4.0,1550.95,142.24
5.0,1564.43,141.91
6.0,1574.89,141.13
7.0,1579.47,139.85
8.0,1565.42,136.64
10.0,1604.92,140.71
,,
,,
,,
,,
,,
,,
,,
,,
,,
,,
,,
,,
,,
,,
,,
,,
,,
,,
,,
,,
,,
,,
,,
,,
,,
,,
,,
,,
,,
,,
,,
,,
,,
,,
,,
,,
,,
,,
,,
,,
,,
,,
,,
,,
,,
,,
,,
,,
,,
,,
,,
,,
,,
,,
,,
,,
,,
,,
,,
,,
,,
,,
,,

File: ttw_95_25.csv
Angular Frequency,Storage Modulus,Loss Modulus
0.1,5.43243,7.5527
0.2,8.46101,11.2309
0.3,11.3031,13.8509
0.4,13.5066,15.9732
0.6,16.9302,19.677
0.8,20.6845,21.804
1.0,23.0682,24.1334
2.0,34.3985,33.5841
2.5,38.3237,37.0563
3.0,41.6583,40.2335
4.0,47.9527,45.1239
5.0,54.7891,50.1012
6.0,59.2539,54.1963
7.0,64.8606,57.5732
8.0,67.7885,62.079
10.0,77.2412,66.5552
,,
,,
,,
,,
,,
,,
,,
,,
,,
,,
,,
,,
,,
,,
,,
,,
,,
,,
,,
,,
,,
,,
,,
,,
,,
,,
,,
,,
,,
,,
,,
,,
,,
,,
,,
,,
,,
,,
,,
,,

File: ttw_95_27.csv
Angular Frequency,Storage Modulus,Loss Modulus
0.1,12.134,14.1052
0.2,19.4433,19.5319
0.3,23.5634,24.1548
0.4,27.6935,27.9283
0.6,34.4407,33.4502
0.8,40.3908,37.8209
1.0,44.7237,40.9419
2.0,63.223,54.9614
2.5,70.586,60.3972
3.0,78.1609,66.0774
4.0,89.5636,72.3669
5.0,98.8259,79.64
6.0,108.659,84.1009
7.0,116.333,89.5283
8.0,124.49,92.6687
10.0,138.212,101.083
,,
,,
,,
,,
,,
,,
,,
,,
,,
,,
,,
,,
,,
,,
,,
,,
,,
,,
,,
,,
,,
,,
,,
,,
,,
,,
,,
,,
,,
,,
,,
,,
,,
,,
,,
,,
,,
,,
,,
,,

File: ttw_95_30.csv
Angular Frequency,Storage Modulus,Loss Modulus
0.1,44.2157,45.0045
0.2,65.0891,58.8078
0.3,80.0825,69.6405
0.4,93.1437,77.8907
0.6,114.387,88.2521
0.8,129.072,98.598
1.0,142.146,104.275
2.0,196.597,131.707
2.5,215.086,137.595
3.0,233.518,144.654
4.0,259.189,152.846
5.0,281.806,161.086
6.0,301.911,166.777
7.0,319.541,171.646
8.0,329.767,175.034
10.0,362.797,183.088
,,
,,
,,
,,
,,
,,
,,
,,
,,
,,
,,
,,
,,
,,
,,
,,
,,
,,
,,
,,
,,
,,
,,
,,
,,
,,
,,
,,
,,
,,
,,
,,
,,
,,
,,
,,
,,
,,
,,
,,

File: ttw_95_32.csv
Angular Frequency,Storage Modulus,Loss Modulus
0.1,209.123,117.34
0.2,268.626,130.544
0.3,303.409,138.106
0.4,330.329,143.463
0.6,366.574,147.629
0.8,395.189,150.719
1.0,421.157,153.075
2.0,488.802,159.125
2.5,510.998,159.978
3.0,527.057,159.497
4.0,555.289,160.191
5.0,578.388,160.985
6.0,599.399,161.453
7.0,613.317,161.028
8.0,642.1,168.378
10.0,648.374,160.949
,,
,,
,,
,,
,,
,,
,,
,,
,,
,,
,,
,,
,,
,,
,,
,,
,,
,,
,,
,,
,,
,,
,,
,,
,,
,,
,,
,,
,,
,,
,,
,,
,,
,,
,,
,,
,,
,,
,,
,,