Folder: pyRheo/demos/data/vinyl_foam

Note: README.md
# pyRheo

**pyRheo** is a Python package for rheological modeling, providing tools for creep, stress relaxation, oscillation, and rotation models. This package is designed to help researchers and engineers analyze and model the behavior of viscoelastic materials.

## Table of Contents

- [Installation](#installation)
- [Usage](#usage)
  - [Creep Model](#creep-model)
  - [Stress Relaxation Model](#stress-relaxation-model)
  - [Oscillation Model](#oscillation-model)
  - [Rotation Model](#rotation-model)
- [Demo Scripts](#demo-scripts)
- [GUI](#gui)
- [Contributing](#contributing)
- [License](#license)

## Installation

You can install the `pyRheo` package directly from GitHub using pip:

```sh
pip install git+https://github.com/mirandi1/pyRheo.git
```

## Usage
### Importing the package
Once the package has been installed, you can simply import its modules:

```python
from pyRheo import CreepModel, RelaxationModel, OscillationModel, RotationModel
```

### Modeling data with pyRheo
To begin modeling data, first define a model object:

```python
model = RelaxationModel(model="FractionalZenerSolidS", initial_guesses="random", 
                        num_initial_guesses=10, 
                        minimization_algorithm="Powell", 
                        mittag_leffler_type="Pade32"
                       )
```

fit the data with the model object:

```python
model.fit(time, G_relax)
```

Here, `time` and `G_relax` are Python NumPy arrays of the same size.

### Output the model results

```python
model.get_parameters()
model.print_parameters()
model.print_error()
```

### Predicting data and plotting
Plot the original data and the fitting results with 
```python
model.plot(time, G_relax)
```

or use the fitted model to predict data over a customized time range

```python
time_predict = np.logspace(np.min(np.log10(time)), np.max(np.log10(time)), 100)
G_relax_predict = model.predict(time_predict)
```

File: foam_dma_0C.csv
Angular Frequency	Storage Modulus	Loss Modulus
0.3	28.2789	7.29255
0.475468	30.7413	7.3618
0.753566	33.0509	7.47238
1.19432	35.3433	7.48943
1.89287	37.5846	7.52099
3.0	39.8378	7.48368
4.75468	42.03	7.39349
7.53566	44.2534	7.33549
11.9432	46.4615	7.22583
18.9287	48.6959	7.12824
30.0	50.739	6.93538

File: foam_dma_5C.csv
Angular Frequency	Storage Modulus	Loss Modulus
0.3	18.4127	6.19209
0.475468	20.3929	6.49432
0.753566	22.399	6.76412
1.19432	24.4442	7.00893
1.89287	26.5703	7.23928
3.0	28.739	7.43153
4.75468	31.0327	7.60903
7.53566	33.3103	7.74335
11.9432	35.6553	7.85837
18.9287	38.0936	7.95368
30.0	40.4156	7.95285

File: foam_dma_10C.csv
Angular Frequency	Storage Modulus	Loss Modulus
0.3	9.61979	3.86233
0.475468	10.824	4.1488
0.753566	12.0952	4.46233
1.19432	13.441	4.78351
1.89287	14.8854	5.10011
3.0	16.448	5.4214
4.75468	18.0836	5.70832
7.53566	19.8096	6.01071
11.9432	21.6394	6.29256
18.9287	23.5547	6.55782
30.0	25.5892	6.80105

File: foam_dma_15C.csv
Angular Frequency	Storage Modulus	Loss Modulus
0.3	4.6804	2.21003
0.475468	5.2966	2.44584
0.753566	5.98314	2.69968
1.19432	6.74678	2.97483
1.89287	7.59537	3.26833
3.0	8.53326	3.57954
4.75468	9.55506	3.90155
7.53566	10.6725	4.23459
11.9432	11.8992	4.58058
18.9287	13.2325	4.92613
30.0	14.688	5.25707

File: foam_dma_20C.csv
Angular Frequency	Storage Modulus	Loss Modulus
0.3	2.63805	1.3006
0.475468	3.0059	1.47702
0.753566	3.43499	1.67524
1.19432	3.92483	1.89665
1.89287	4.48151	2.1374
3.0	5.10973	2.41018
4.75468	5.82875	2.70726
7.53566	6.62715	3.02361
11.9432	7.5268	3.36901
18.9287	8.53758	3.733
30.0	9.66712	4.11596

File: foam_dma_25C.csv
Angular Frequency	Storage Modulus	Loss Modulus
0.3	1.23919	0.612103
0.475468	1.40585	0.702101
0.753566	1.59621	0.806713
1.19432	1.81575	0.927132
1.89287	2.06749	1.06457
3.0	2.36	1.22229
4.75468	2.69569	1.40151
7.53566	3.08025	1.60445
11.9432	3.52175	1.83058
18.9287	4.02668	2.08255
30.0	4.6046	2.36062

File: foam_dma_30C.csv
Angular Frequency	Storage Modulus	Loss Modulus
0.3	0.789572	0.357401
0.475468	0.873519	0.405143
0.753566	0.968018	0.460106
1.19432	1.07673	0.524165
1.89287	1.20032	0.597253
3.0	1.3401	0.679601
4.75468	1.50206	0.773997
7.53566	1.67029	0.873346
11.9432	1.86733	0.984194
18.9287	2.0764	1.09946
30.0	2.31212	1.2233

File: foam_dma_35C.csv
Angular Frequency	Storage Modulus	Loss Modulus
0.3	0.509356	0.18771
0.475468	0.554968	0.212408
0.753566	0.610387	0.243777
1.19432	0.674816	0.281199
1.89287	0.749152	0.325889
3.0	0.834463	0.378265
4.75468	0.928249	0.43821
7.53566	1.03086	0.506096
11.9432	1.14943	0.584417
18.9287	1.28218	0.671663
30.0	1.43084	0.768666

File: foam_dma_40C.csv
Angular Frequency	Storage Modulus	Loss Modulus
0.3	0.373848	0.109386
0.475468	0.403461	0.124197
0.753566	0.438204	0.141848
1.19432	0.476336	0.162394
1.89287	0.519301	0.186999
3.0	0.569341	0.216642
4.75468	0.626948	0.25356
7.53566	0.693494	0.2969
11.9432	0.769879	0.348558
18.9287	0.850328	0.406309
30.0	0.944505	0.474305

File: foam_dma_45C.csv
Angular Frequency	Storage Modulus	Loss Modulus
0.3	0.301138	0.0700146
0.475468	0.324838	0.0799162
0.753566	0.348018	0.089853
1.19432	0.37275	0.101943
1.89287	0.400045	0.116608
3.0	0.430876	0.134154
4.75468	0.466592	0.154801
7.53566	0.507136	0.180166
11.9432	0.554204	0.211146
18.9287	0.608808	0.248502
30.0	0.673053	0.294596

File: foam_dma_50C.csv
Angular Frequency	Storage Modulus	Loss Modulus
0.3	0.262922	0.0494308
0.475468	0.282589	0.0565327
0.753566	0.3003	0.0624495
1.19432	0.317148	0.0698104
1.89287	0.33591	0.078911
3.0	0.356776	0.089688
4.75468	0.380122	0.101779
7.53566	0.407653	0.11705
11.9432	0.438308	0.136282
18.9287	0.473446	0.158794
30.0	0.514126	0.187126

File: foam_dma_60C.csv
Angular Frequency	Storage Modulus	Loss Modulus
0.3	0.21866	0.0289632
0.475468	0.236923	0.0326661
0.753566	0.247375	0.035207
1.19432	0.257987	0.0384948
1.89287	0.268072	0.0418091
3.0	0.279399	0.0464151
4.75468	0.292091	0.0521121
7.53566	0.305569	0.0580809
11.9432	0.321245	0.0657321
18.9287	0.337945	0.074471
30.0	0.358115	0.0866628

File: foam_dma_-5C.csv
Angular Frequency	Storage Modulus	Loss Modulus
0.3	41.4437	7.87926
0.475468	44.1094	7.6982
0.753566	46.4867	7.55905
1.19432	48.8232	7.41276
1.89287	51.0232	7.19031
3.0	53.1437	6.94398
4.75468	55.1638	6.6966
7.53566	57.1437	6.48573
11.9432	59.0446	6.2572
18.9287	60.8636	5.97239
30.0	62.6193	5.71446

File: foam_dma_-10C.csv
Angular Frequency	Storage Modulus	Loss Modulus
0.3	55.6224	7.008
0.475468	57.9442	6.64442
0.753566	60.0243	6.34043
1.19432	61.8151	6.0248
1.89287	63.5459	5.71643
3.0	65.1771	5.46482
4.75468	66.7282	5.17678
7.53566	68.2129	4.93063
11.9432	69.6702	4.69736
18.9287	71.0049	4.39215
30.0	72.2914	4.10464

File: foam_dma_-15C.csv
Angular Frequency	Storage Modulus	Loss Modulus
0.3	65.2175	6.13761
0.475468	67.3114	5.73345
0.753566	69.0371	5.36397
1.19432	70.5468	5.00444
1.89287	71.9984	4.61062
3.0	73.2707	4.29924
4.75468	74.6864	4.0095
7.53566	75.7801	3.80171
11.9432	76.849	3.60468
18.9287	77.8967	3.35029
30.0	78.9182	3.10213

File: foam_dma_-20C.csv
Angular Frequency	Storage Modulus	Loss Modulus
0.3	75.0632	4.74962
0.475468	76.5945	4.52688
0.753566	78.21	4.19
1.19432	79.566	3.83933
1.89287	80.7212	3.55231
3.0	81.6569	3.26586
4.75468	82.679	3.05524
7.53566	83.4552	2.92981
11.9432	84.264	2.78237
18.9287	85.1219	2.53636
30.0	85.9014	2.35462

File: foam_dma_-25C.csv
Angular Frequency	Storage Modulus	Loss Modulus
0.3	77.6574	3.57905
0.475468	78.8457	3.35772
0.753566	80.0251	3.18834
1.19432	80.8404	2.79635
1.89287	81.7309	2.58417
3.0	82.6422	2.48452
4.75468	83.2817	2.34714
7.53566	83.9706	2.19451
11.9432	84.5872	2.09113
18.9287	85.241	1.92297
30.0	85.8424	1.79801

File: foam_dma_-30C.csv
Angular Frequency	Storage Modulus	Loss Modulus
0.3	83.4306	3.0038
0.475468	84.7864	2.72477
0.753566	85.7509	2.47533
1.19432	86.6031	2.3637
1.89287	87.2955	2.16921
3.0	87.9707	2.00791
4.75468	88.5875	1.90173
7.53566	89.2994	1.87914
11.9432	89.857	1.86634
18.9287	90.3515	1.69969
30.0	90.5715	1.5888

File: foam_dma_-35C.csv
Angular Frequency	Storage Modulus	Loss Modulus
0.3	91.1148	1.9021
0.475468	92.2574	1.95358
0.753566	92.8515	1.66885
1.19432	93.2294	1.45908
1.89287	93.9641	1.6333
3.0	94.4068	1.50901
4.75468	95.024	1.5263
7.53566	95.4758	1.52376
11.9432	95.8522	1.48686
18.9287	96.4877	1.46139
30.0	96.6621	1.38097