Folder: pyRheo/demos/bayesian_optimization/data/chia_pudding

Note: README.md
# pyRheo

**pyRheo** is a Python package for rheological modeling, providing tools for creep, stress relaxation, oscillation, and rotation models. This package is designed to help researchers and engineers analyze and model the behavior of viscoelastic materials.

## Table of Contents

- [Installation](#installation)
- [Usage](#usage)
  - [Creep Model](#creep-model)
  - [Stress Relaxation Model](#stress-relaxation-model)
  - [Oscillation Model](#oscillation-model)
  - [Rotation Model](#rotation-model)
- [Demo Scripts](#demo-scripts)
- [GUI](#gui)
- [Contributing](#contributing)
- [License](#license)

## Installation

You can install the `pyRheo` package directly from GitHub using pip:

```sh
pip install git+https://github.com/mirandi1/pyRheo.git
```

## Usage
### Importing the package
Once the package has been installed, you can simply import its modules:

```python
from pyRheo import CreepModel, RelaxationModel, OscillationModel, RotationModel
```

### Modeling data with pyRheo
To begin modeling data, first define a model object:

```python
model = RelaxationModel(model="FractionalZenerSolidS", initial_guesses="random", 
                        num_initial_guesses=10, 
                        minimization_algorithm="Powell", 
                        mittag_leffler_type="Pade32"
                       )
```

fit the data with the model object:

```python
model.fit(time, G_relax)
```

Here, `time` and `G_relax` are Python NumPy arrays of the same size.

### Output the model results

```python
model.get_parameters()
model.print_parameters()
model.print_error()
```

### Predicting data and plotting
Plot the original data and the fitting results with 
```python
model.plot(time, G_relax)
```

or use the fitted model to predict data over a customized time range

```python
time_predict = np.logspace(np.min(np.log10(time)), np.max(np.log10(time)), 100)
G_relax_predict = model.predict(time_predict)
```

File: oscillation_chia_data.csv
Angular Frequency,Storage Modulus,Loss Modulus
100.0,178.11,228.46
67.2,162.94,150.62
45.2,141.52,111.45
30.4,126.71,89.679
20.4,114.69,71.74
13.7,102.99,58.214
9.24,93.067,47.552
6.21,84.661,39.135
4.18,77.922,32.367
2.81,72.247,26.874
1.89,67.459,22.624
1.27,63.488,19.183
0.853,60.003,16.489
0.574,57.062,14.478
0.386,54.359,12.787
0.259,51.938,11.575
0.174,49.803,10.606
0.117,47.783,10.035
0.0788,45.808,9.1633
0.053,44.263,9.4928
0.0356,42.635,9.5032
0.024,40.681,9.5656
0.0161,39.425,9.238
0.0108,37.572,10.513
0.00728,36.24,9.943