Folder: pyRheo/demos/bayesian_optimization/data/metal_coordinating_polymer_network

Note: README.md
# pyRheo

**pyRheo** is a Python package for rheological modeling, providing tools for creep, stress relaxation, oscillation, and rotation models. This package is designed to help researchers and engineers analyze and model the behavior of viscoelastic materials.

## Table of Contents

- [Installation](#installation)
- [Usage](#usage)
  - [Creep Model](#creep-model)
  - [Stress Relaxation Model](#stress-relaxation-model)
  - [Oscillation Model](#oscillation-model)
  - [Rotation Model](#rotation-model)
- [Demo Scripts](#demo-scripts)
- [GUI](#gui)
- [Contributing](#contributing)
- [License](#license)

## Installation

You can install the `pyRheo` package directly from GitHub using pip:

```sh
pip install git+https://github.com/mirandi1/pyRheo.git
```

## Usage
### Importing the package
Once the package has been installed, you can simply import its modules:

```python
from pyRheo import CreepModel, RelaxationModel, OscillationModel, RotationModel
```

### Modeling data with pyRheo
To begin modeling data, first define a model object:

```python
model = RelaxationModel(model="FractionalZenerSolidS", initial_guesses="random", 
                        num_initial_guesses=10, 
                        minimization_algorithm="Powell", 
                        mittag_leffler_type="Pade32"
                       )
```

fit the data with the model object:

```python
model.fit(time, G_relax)
```

Here, `time` and `G_relax` are Python NumPy arrays of the same size.

### Output the model results

```python
model.get_parameters()
model.print_parameters()
model.print_error()
```

### Predicting data and plotting
Plot the original data and the fitting results with 
```python
model.plot(time, G_relax)
```

or use the fitted model to predict data over a customized time range

```python
time_predict = np.logspace(np.min(np.log10(time)), np.max(np.log10(time)), 100)
G_relax_predict = model.predict(time_predict)
```

File: epstein.csv
Angular Frequency	Storage Modulus	Loss Modulus
0.100783	8.27672	27.7959
0.147252	12.4043	39.0821
0.228304	18.7997	55.9015
0.325366	26.5792	75.6136
0.475382	39.6108	100.93
0.694567	56.7042	148.141
1.01481	84.1305	183.092
1.48271	116.977	251.847
2.16634	165.319	332.082
3.16518	229.728	416.681
4.6332	319.772	563.367
6.69456	437.618	749.03
9.89411	596.437	898.474
14.5616	816.953	1078.04
21.9122	1105.08	1328.52
31.0999	1451.9	1583.8
46.9623	1832.97	1863.7
65.35	2342.78	2036.86
99.4188	2930.48	2216.5